;+
;> DESCRIPTION = 'Filter transmission curve for HST WFPC2 F450W'
;> WAVE_UNITS  = '[um]'
;> T_UNITS     = '[]'
;-

;~            WAVE                T
     3.5241900E-01    0.0000000E+00
     3.5886400E-01    8.9686100E-01
     3.6529700E-01    3.1390100E+00
     3.6768400E-01    7.1748900E+00
     3.7006700E-01    1.1659200E+01
     3.7245400E-01    1.5695100E+01
     3.7323900E-01    1.8385700E+01
     3.7562200E-01    2.2870000E+01
     3.7719900E-01    2.7354300E+01
     3.7956700E-01    3.3632300E+01
     3.8274300E-01    3.9910300E+01
     3.8511100E-01    4.6188300E+01
     3.8749500E-01    5.0672600E+01
     3.8906400E-01    5.6053800E+01
     3.9145500E-01    5.9641300E+01
     3.9384500E-01    6.3228700E+01
     3.9703800E-01    6.7264600E+01
     4.0103800E-01    7.1300400E+01
     4.0504100E-01    7.4887900E+01
     4.0904100E-01    7.8923800E+01
     4.1466100E-01    8.2062800E+01
     4.2191200E-01    8.2959600E+01
     4.2915200E-01    8.5201800E+01
     4.3396500E-01    8.8340800E+01
     4.4039900E-01    9.0583000E+01
     4.4606900E-01    8.7443900E+01
     4.5012300E-01    8.4753400E+01
     4.5656700E-01    8.5650200E+01
     4.6218400E-01    8.9237700E+01
     4.6699700E-01    9.2376700E+01
     4.7186500E-01    8.8789200E+01
     4.7592900E-01    8.4753400E+01
     4.8079700E-01    8.1165900E+01
     4.8805500E-01    8.1165900E+01
     4.9529500E-01    8.3408100E+01
     5.0091500E-01    8.6547100E+01
     5.0410800E-01    9.0583000E+01
     5.0570300E-01    9.2825100E+01
     5.0734800E-01    8.8789200E+01
     5.0818700E-01    8.4753400E+01
     5.0982600E-01    8.1614300E+01
     5.1067200E-01    7.6681600E+01
     5.1152200E-01    7.1300400E+01
     5.1238600E-01    6.4125600E+01
     5.1325000E-01    5.6950700E+01
     5.1329000E-01    5.2017900E+01
     5.1415800E-01    4.4394600E+01
     5.1502200E-01    3.7219700E+01
     5.1591200E-01    2.6905800E+01
     5.1667500E-01    3.2287000E+01
     5.1756800E-01    2.1524700E+01
     5.1921400E-01    1.7488800E+01
     5.2086300E-01    1.3004500E+01
     5.2333300E-01    6.7264600E+00
     5.2739800E-01    2.6905800E+00
     5.3144400E-01    8.9686100E-01
     5.3709700E-01    0.0000000E+00
