;+
;> DESCRIPTION = 'Filter transmission curve for HST WFPC2 F547M'
;> WAVE_UNITS  = '[um]'
;> T_UNITS     = '[]'
;-

;~            WAVE                T
     4.9794100E-01    0.0000000E+00
     5.0015100E-01    1.1828000E+00
     5.0148100E-01    3.4082800E+00
     5.0369300E-01    5.6402700E+00
     5.0503000E-01    1.0081500E+01
     5.0636500E-01    1.4079500E+01
     5.0770700E-01    2.0293300E+01
     5.0860200E-01    2.4731200E+01
     5.0949900E-01    2.9612300E+01
     5.1039600E-01    3.4493300E+01
     5.1129200E-01    3.9374400E+01
     5.1218800E-01    4.3812300E+01
     5.1264100E-01    4.7803800E+01
     5.1397200E-01    5.0472500E+01
     5.1486700E-01    5.4910400E+01
     5.1532000E-01    5.8901900E+01
     5.1665700E-01    6.3343100E+01
     5.1798800E-01    6.6011700E+01
     5.1976500E-01    7.0013000E+01
     5.2110100E-01    7.4454200E+01
     5.2287800E-01    7.8455500E+01
     5.2509500E-01    8.2460100E+01
     5.2775300E-01    8.6024800E+01
     5.3040900E-01    8.9146300E+01
     5.3438500E-01    9.0948200E+01
     5.3879800E-01    9.1423900E+01
     5.4276800E-01    9.1010100E+01
     5.4673800E-01    9.1039400E+01
     5.4806100E-01    9.0606100E+01
     5.5247100E-01    9.0195500E+01
     5.5643800E-01    8.8895400E+01
     5.6040200E-01    8.6709000E+01
     5.6392500E-01    8.4519400E+01
     5.6788900E-01    8.2333000E+01
     5.7096800E-01    7.9253800E+01
     5.7360500E-01    7.5728300E+01
     5.7579900E-01    7.1756300E+01
     5.7711100E-01    6.7777800E+01
     5.7798000E-01    6.3352900E+01
     5.7841100E-01    5.9811000E+01
     5.7928400E-01    5.6715500E+01
     5.8015500E-01    5.2733800E+01
     5.8102400E-01    4.8308900E+01
     5.8144200E-01    4.0335600E+01
     5.8145300E-01    4.3880700E+01
     5.8275500E-01    3.6800300E+01
     5.8318500E-01    3.2815200E+01
     5.8405400E-01    2.8390400E+01
     5.8492300E-01    2.3965500E+01
     5.8579400E-01    1.9983700E+01
     5.8666300E-01    1.5558800E+01
     5.8841600E-01    1.1583600E+01
     5.9016800E-01    7.1652000E+00
     5.9280600E-01    4.0827600E+00
     5.9632900E-01    1.8931200E+00
     5.9985500E-01    0.0000000E+00
