;+
;> DESCRIPTION = 'Filter transmission curve for HST WFPC2 F814W'
;> WAVE_UNITS  = '[um]'
;> T_UNITS     = '[]'
;-

;~            WAVE                T
     6.8035800E-01    0.0000000E+00
     6.9284900E-01    5.3004400E-01
     6.9994300E-01    3.8008000E+00
     7.0343400E-01    9.2369800E+00
     7.0511500E-01    1.6298800E+01
     7.0664200E-01    3.3677200E+01
     7.0677900E-01    2.4446700E+01
     7.0810400E-01    5.5399300E+01
     7.0973600E-01    6.5719000E+01
     7.1005100E-01    4.4543100E+01
     7.1140900E-01    7.3323800E+01
     7.1308100E-01    8.0928700E+01
     7.1654000E-01    8.8536700E+01
     7.2361000E-01    9.3436400E+01
     7.3429900E-01    9.5084700E+01
     7.4863300E-01    9.1852700E+01
     7.6108400E-01    9.5133200E+01
     7.7532900E-01    9.7873900E+01
     7.9141600E-01    9.6817000E+01
     8.0928900E-01    9.5763400E+01
     8.2711400E-01    9.7967600E+01
     8.4497000E-01    9.7999900E+01
     8.6107400E-01    9.5857100E+01
     8.7363800E-01    9.1536000E+01
     8.8618600E-01    8.8300800E+01
     9.0222500E-01    9.0501800E+01
     9.1287400E-01    9.4864900E+01
     9.2532500E-01    9.8145400E+01
     9.4139600E-01    9.8174500E+01
     9.4856300E-01    9.6558500E+01
     9.5223100E-01    9.0049300E+01
     9.5590000E-01    8.3540100E+01
     9.5780700E-01    7.5398700E+01
     9.5968900E-01    6.8886300E+01
     9.6157200E-01    6.2373900E+01
     9.6347100E-01    5.4775500E+01
     9.6534500E-01    4.8806100E+01
     9.6548300E-01    3.9575500E+01
     9.6736500E-01    3.3063100E+01
     9.6923200E-01    2.7636600E+01
     9.7112200E-01    2.0581200E+01
     9.7476600E-01    1.5700900E+01
     9.8021200E-01    9.7379400E+00
     9.8742800E-01    4.8641200E+00
     9.9818200E-01    2.1686600E+00
     1.0089400E+00    0.0000000E+00
